Temperature (K)	Pressure (MPa)	Density (l, kg/m3)	Volume (l, m3/kg)	Internal Energy (l, kJ/kg)	Enthalpy (l, kJ/kg)	Entropy (l, J/g*K)	Cv (l, J/g*K)	Cp (l, J/g*K)	Sound Spd. (l, m/s)	Joule-Thomson (l, K/MPa)	Viscosity (l, Pa*s)	Therm. Cond. (l, W/m*K)	Surf. Tension (l, N/m)	Density (v, kg/m3)	Volume (v, m3/kg)	Internal Energy (v, kJ/kg)	Enthalpy (v, kJ/kg)	Entropy (v, J/g*K)	Cv (v, J/g*K)	Cp (v, J/g*K)	Sound Spd. (v, m/s)	Joule-Thomson (v, K/MPa)	Viscosity (v, Pa*s)	Therm. Cond. (v, W/m*K)
14.000	0.0075414	76.971	0.012992	-53.718	-53.620	-3.0506	5.1623	7.0310	1268.3	-1.5728	2.5531e-05	0.076669	0.0029925	0.13273	7.5343	343.39	400.21	29.366	6.2447	10.569	307.56	29.101	6.6684e-07	0.010426
14.100	0.0079820	76.889	0.013006	-53.015	-52.911	-3.0006	5.1654	7.0555	1266.2	-1.5656	2.5187e-05	0.077494	0.0029759	0.13958	7.1645	343.95	401.13	29.201	6.2484	10.582	308.53	28.823	6.7488e-07	0.010555
14.200	0.0084422	76.807	0.013020	-52.309	-52.199	-2.9507	5.1697	7.0819	1264.1	-1.5579	2.4851e-05	0.078303	0.0029592	0.14669	6.8173	344.50	402.05	29.039	6.2522	10.594	309.50	28.549	6.8281e-07	0.010681
14.300	0.0089225	76.725	0.013034	-51.601	-51.484	-2.9010	5.1751	7.1098	1262.0	-1.5500	2.4524e-05	0.079094	0.0029426	0.15405	6.4912	345.05	402.97	28.879	6.2559	10.607	310.45	28.279	6.9062e-07	0.010805
14.400	0.0094235	76.642	0.013048	-50.889	-50.766	-2.8514	5.1813	7.1392	1259.9	-1.5417	2.4206e-05	0.079870	0.0029260	0.16169	6.1846	345.60	403.88	28.721	6.2596	10.620	311.40	28.014	6.9832e-07	0.010926
14.500	0.0099458	76.559	0.013062	-50.175	-50.045	-2.8019	5.1883	7.1699	1257.7	-1.5331	2.3894e-05	0.080629	0.0029094	0.16960	5.8961	346.15	404.79	28.566	6.2633	10.633	312.35	27.753	7.0592e-07	0.011046
14.600	0.010490	76.476	0.013076	-49.458	-49.321	-2.7526	5.1960	7.2017	1255.6	-1.5244	2.3591e-05	0.081372	0.0028927	0.17779	5.6245	346.69	405.69	28.413	6.2670	10.647	313.29	27.496	7.1341e-07	0.011164
14.700	0.011057	76.392	0.013090	-48.737	-48.593	-2.7034	5.2042	7.2346	1253.5	-1.5154	2.3294e-05	0.082100	0.0028761	0.18627	5.3685	347.23	406.59	28.262	6.2706	10.660	314.22	27.244	7.2082e-07	0.011279
14.800	0.011647	76.308	0.013105	-48.014	-47.861	-2.6544	5.2128	7.2684	1251.3	-1.5062	2.3005e-05	0.082812	0.0028595	0.19504	5.1272	347.77	407.49	28.113	6.2742	10.674	315.14	26.996	7.2813e-07	0.011394
14.900	0.012260	76.224	0.013119	-47.287	-47.126	-2.6054	5.2218	7.3030	1249.2	-1.4969	2.2722e-05	0.083509	0.0028429	0.20410	4.8996	348.31	408.38	27.966	6.2777	10.688	316.06	26.753	7.3536e-07	0.011506
15.000	0.012898	76.139	0.013134	-46.556	-46.387	-2.5565	5.2311	7.3384	1247.1	-1.4875	2.2446e-05	0.084191	0.0028263	0.21347	4.6846	348.85	409.27	27.821	6.2812	10.703	316.97	26.514	7.4250e-07	0.011618
15.100	0.013561	76.053	0.013149	-45.822	-45.644	-2.5077	5.2406	7.3744	1244.9	-1.4780	2.2176e-05	0.084859	0.0028098	0.22314	4.4815	349.38	410.15	27.677	6.2847	10.717	317.87	26.279	7.4957e-07	0.011728
15.200	0.014249	75.968	0.013163	-45.085	-44.897	-2.4590	5.2502	7.4111	1242.8	-1.4684	2.1912e-05	0.085511	0.0027932	0.23313	4.2895	349.91	411.03	27.536	6.2881	10.732	318.77	26.049	7.5657e-07	0.011837
15.300	0.014964	75.882	0.013178	-44.343	-44.146	-2.4104	5.2600	7.4483	1240.6	-1.4588	2.1654e-05	0.086149	0.0027766	0.24344	4.1078	350.44	411.91	27.397	6.2914	10.747	319.66	25.823	7.6350e-07	0.011944
15.400	0.015706	75.795	0.013193	-43.599	-43.392	-2.3619	5.2698	7.4860	1238.5	-1.4491	2.1402e-05	0.086773	0.0027600	0.25407	3.9359	350.96	412.78	27.259	6.2948	10.762	320.54	25.602	7.7037e-07	0.012051
15.500	0.016475	75.708	0.013209	-42.850	-42.633	-2.3134	5.2797	7.5242	1236.3	-1.4393	2.1155e-05	0.087383	0.0027435	0.26504	3.7730	351.48	413.64	27.124	6.2980	10.778	321.42	25.384	7.7717e-07	0.012156
15.600	0.017272	75.620	0.013224	-42.098	-41.870	-2.2651	5.2895	7.5629	1234.1	-1.4295	2.0913e-05	0.087979	0.0027269	0.27635	3.6186	352.00	414.50	26.990	6.3013	10.794	322.29	25.171	7.8392e-07	0.012261
15.700	0.018098	75.533	0.013239	-41.342	-41.103	-2.2167	5.2994	7.6019	1232.0	-1.4197	2.0677e-05	0.088562	0.0027104	0.28800	3.4723	352.52	415.36	26.857	6.3045	10.810	323.15	24.962	7.9061e-07	0.012365
15.800	0.018953	75.444	0.013255	-40.582	-40.331	-2.1685	5.3092	7.6412	1229.8	-1.4098	2.0445e-05	0.089131	0.0026938	0.30000	3.3334	353.04	416.21	26.727	6.3076	10.826	324.01	24.757	7.9725e-07	0.012468
15.900	0.019838	75.355	0.013270	-39.819	-39.556	-2.1203	5.3189	7.6809	1227.6	-1.4000	2.0219e-05	0.089687	0.0026773	0.31235	3.2015	353.55	417.06	26.598	6.3107	10.843	324.86	24.556	8.0384e-07	0.012571
16.000	0.020755	75.266	0.013286	-39.051	-38.776	-2.0721	5.3285	7.7210	1225.5	-1.3901	1.9996e-05	0.090230	0.0026608	0.32507	3.0762	354.06	417.90	26.470	6.3138	10.860	325.71	24.358	8.1039e-07	0.012673
16.100	0.021702	75.176	0.013302	-38.280	-37.991	-2.0241	5.3381	7.7613	1223.3	-1.3802	1.9779e-05	0.090760	0.0026442	0.33816	2.9572	354.56	418.74	26.344	6.3168	10.877	326.54	24.164	8.1689e-07	0.012774
16.200	0.022682	75.086	0.013318	-37.505	-37.203	-1.9760	5.3476	7.8019	1221.1	-1.3703	1.9565e-05	0.091277	0.0026277	0.35163	2.8439	355.06	419.57	26.220	6.3198	10.895	327.38	23.974	8.2335e-07	0.012875
16.300	0.023695	74.995	0.013334	-36.726	-36.410	-1.9281	5.3569	7.8428	1218.9	-1.3604	1.9356e-05	0.091782	0.0026112	0.36547	2.7362	355.56	420.40	26.097	6.3227	10.913	328.20	23.788	8.2977e-07	0.012975
16.400	0.024741	74.904	0.013350	-35.942	-35.612	-1.8801	5.3662	7.8840	1216.7	-1.3505	1.9151e-05	0.092275	0.0025947	0.37970	2.6337	356.06	421.22	25.975	6.3256	10.931	329.02	23.605	8.3616e-07	0.013075
16.500	0.025821	74.813	0.013367	-35.155	-34.810	-1.8323	5.3753	7.9255	1214.5	-1.3407	1.8950e-05	0.092756	0.0025782	0.39432	2.5360	356.55	422.03	25.855	6.3285	10.949	329.84	23.425	8.4251e-07	0.013175
16.600	0.026936	74.721	0.013383	-34.364	-34.004	-1.7844	5.3843	7.9672	1212.3	-1.3308	1.8753e-05	0.093225	0.0025617	0.40935	2.4429	357.04	422.85	25.737	6.3314	10.968	330.64	23.249	8.4884e-07	0.013274
16.700	0.028087	74.628	0.013400	-33.569	-33.193	-1.7367	5.3932	8.0091	1210.1	-1.3209	1.8560e-05	0.093682	0.0025452	0.42478	2.3542	357.53	423.65	25.619	6.3342	10.987	331.44	23.076	8.5513e-07	0.013374
16.800	0.029274	74.535	0.013417	-32.770	-32.377	-1.6889	5.4019	8.0514	1207.8	-1.3110	1.8370e-05	0.094128	0.0025287	0.44062	2.2695	358.01	424.45	25.503	6.3370	11.007	332.24	22.906	8.6140e-07	0.013472
16.900	0.030498	74.441	0.013433	-31.967	-31.557	-1.6412	5.4106	8.0938	1205.6	-1.3012	1.8183e-05	0.094562	0.0025123	0.45689	2.1887	358.49	425.24	25.388	6.3398	11.027	333.03	22.739	8.6763e-07	0.013571
17.000	0.031759	74.347	0.013450	-31.159	-30.732	-1.5936	5.4191	8.1366	1203.3	-1.2913	1.8001e-05	0.094986	0.0024958	0.47357	2.1116	358.97	426.03	25.275	6.3425	11.047	333.81	22.575	8.7385e-07	0.013670
17.100	0.033059	74.252	0.013468	-30.348	-29.903	-1.5459	5.4275	8.1796	1201.1	-1.2814	1.7821e-05	0.095398	0.0024793	0.49069	2.0379	359.44	426.81	25.163	6.3453	11.068	334.58	22.414	8.8005e-07	0.013768
17.200	0.034398	74.157	0.013485	-29.532	-29.069	-1.4984	5.4358	8.2228	1198.8	-1.2716	1.7645e-05	0.095800	0.0024629	0.50825	1.9675	359.91	427.59	25.052	6.3480	11.089	335.35	22.255	8.8622e-07	0.013867
17.300	0.035777	74.062	0.013502	-28.713	-28.230	-1.4508	5.4440	8.2664	1196.5	-1.2617	1.7472e-05	0.096191	0.0024464	0.52625	1.9002	360.38	428.36	24.942	6.3507	11.110	336.11	22.100	8.9238e-07	0.013965
17.400	0.037196	73.965	0.013520	-27.889	-27.386	-1.4033	5.4520	8.3102	1194.2	-1.2518	1.7301e-05	0.096571	0.0024300	0.54471	1.8358	360.84	429.13	24.833	6.3535	11.132	336.87	21.947	8.9851e-07	0.014063
17.500	0.038656	73.869	0.013538	-27.061	-26.538	-1.3558	5.4600	8.3542	1191.9	-1.2420	1.7134e-05	0.096941	0.0024136	0.56362	1.7742	361.30	429.88	24.725	6.3562	11.155	337.62	21.796	9.0464e-07	0.014162
17.600	0.040159	73.771	0.013555	-26.229	-25.685	-1.3083	5.4679	8.3986	1189.6	-1.2321	1.6970e-05	0.097301	0.0023971	0.58300	1.7153	361.75	430.64	24.619	6.3589	11.178	338.37	21.648	9.1075e-07	0.014260
17.700	0.041704	73.674	0.013573	-25.393	-24.826	-1.2609	5.4756	8.4432	1187.3	-1.2222	1.6809e-05	0.097651	0.0023807	0.60285	1.6588	362.20	431.38	24.514	6.3617	11.201	339.10	21.503	9.1684e-07	0.014359
17.800	0.043292	73.575	0.013592	-24.552	-23.964	-1.2135	5.4833	8.4882	1184.9	-1.2124	1.6650e-05	0.097992	0.0023643	0.62317	1.6047	362.65	432.12	24.409	6.3644	11.225	339.83	21.359	9.2293e-07	0.014457
17.900	0.044925	73.476	0.013610	-23.707	-23.096	-1.1661	5.4909	8.5335	1182.5	-1.2025	1.6494e-05	0.098322	0.0023479	0.64398	1.5528	363.09	432.86	24.306	6.3672	11.249	340.56	21.218	9.2900e-07	0.014556
18.000	0.046602	73.377	0.013628	-22.858	-22.223	-1.1188	5.4984	8.5790	1180.2	-1.1926	1.6340e-05	0.098643	0.0023315	0.66529	1.5031	363.53	433.58	24.204	6.3700	11.274	341.28	21.079	9.3507e-07	0.014655
18.100	0.048325	73.277	0.013647	-22.005	-21.345	-1.0715	5.5059	8.6249	1177.8	-1.1828	1.6189e-05	0.098955	0.0023151	0.68709	1.4554	363.97	434.30	24.102	6.3728	11.299	341.99	20.942	9.4113e-07	0.014754
18.200	0.050095	73.176	0.013666	-21.147	-20.462	-1.0242	5.5132	8.6711	1175.4	-1.1729	1.6041e-05	0.099258	0.0022987	0.70940	1.4096	364.40	435.02	24.002	6.3756	11.324	342.70	20.807	9.4718e-07	0.014853
18.300	0.051911	73.075	0.013685	-20.285	-19.574	-0.97686	5.5205	8.7177	1172.9	-1.1630	1.5895e-05	0.099552	0.0022823	0.73223	1.3657	364.83	435.72	23.903	6.3784	11.351	343.40	20.675	9.5323e-07	0.014953
18.400	0.053775	72.974	0.013704	-19.418	-18.681	-0.92959	5.5277	8.7645	1170.5	-1.1530	1.5751e-05	0.099836	0.0022660	0.75557	1.3235	365.25	436.42	23.804	6.3813	11.378	344.09	20.544	9.5927e-07	0.015052
18.500	0.055688	72.871	0.013723	-18.547	-17.783	-0.88233	5.5349	8.8118	1168.1	-1.1431	1.5610e-05	0.10011	0.0022496	0.77944	1.2830	365.67	437.12	23.707	6.3842	11.405	344.78	20.415	9.6531e-07	0.015152
18.600	0.057650	72.769	0.013742	-17.672	-16.880	-0.83509	5.5420	8.8594	1165.6	-1.1332	1.5470e-05	0.10038	0.0022333	0.80384	1.2440	366.08	437.80	23.610	6.3872	11.433	345.46	20.287	9.7134e-07	0.015253
18.700	0.059662	72.665	0.013762	-16.793	-15.972	-0.78786	5.5490	8.9074	1163.1	-1.1232	1.5333e-05	0.10064	0.0022169	0.82879	1.2066	366.49	438.48	23.514	6.3902	11.461	346.13	20.162	9.7738e-07	0.015353
18.800	0.061725	72.561	0.013781	-15.908	-15.058	-0.74064	5.5560	8.9557	1160.6	-1.1133	1.5198e-05	0.10089	0.0022006	0.85429	1.1706	366.90	439.15	23.419	6.3932	11.491	346.80	20.038	9.8341e-07	0.015454
18.900	0.063840	72.457	0.013801	-15.020	-14.139	-0.69343	5.5629	9.0045	1158.1	-1.1033	1.5065e-05	0.10113	0.0021842	0.88034	1.1359	367.30	439.82	23.325	6.3963	11.520	347.46	19.916	9.8945e-07	0.015555
19.000	0.066006	72.352	0.013821	-14.127	-13.214	-0.64623	5.5698	9.0536	1155.5	-1.0933	1.4934e-05	0.10137	0.0021679	0.90696	1.1026	367.70	440.47	23.232	6.3994	11.551	348.11	19.795	9.9548e-07	0.015656
19.100	0.068226	72.246	0.013842	-13.229	-12.285	-0.59904	5.5767	9.1032	1153.0	-1.0832	1.4805e-05	0.10159	0.0021516	0.93415	1.0705	368.09	441.12	23.140	6.4026	11.582	348.76	19.676	1.0015e-06	0.015758
19.200	0.070500	72.140	0.013862	-12.327	-11.349	-0.55185	5.5835	9.1532	1150.4	-1.0732	1.4678e-05	0.10181	0.0021353	0.96192	1.0396	368.48	441.77	23.048	6.4058	11.613	349.40	19.558	1.0076e-06	0.015860
19.300	0.072828	72.033	0.013883	-11.420	-10.409	-0.50466	5.5902	9.2036	1147.8	-1.0631	1.4553e-05	0.10202	0.0021190	0.99027	1.0098	368.86	442.40	22.957	6.4091	11.645	350.04	19.442	1.0136e-06	0.015963
19.400	0.075211	71.925	0.013903	-10.508	-9.4625	-0.45747	5.5970	9.2544	1145.2	-1.0530	1.4430e-05	0.10222	0.0021027	1.0192	0.98114	369.24	443.03	22.867	6.4125	11.678	350.67	19.327	1.0197e-06	0.016066
19.500	0.077651	71.817	0.013924	-9.5920	-8.5108	-0.41028	5.6037	9.3057	1142.6	-1.0429	1.4308e-05	0.10242	0.0020864	1.0488	0.95349	369.61	443.65	22.777	6.4159	11.712	351.29	19.214	1.0257e-06	0.016169
19.600	0.080148	71.708	0.013945	-8.6711	-7.5535	-0.36310	5.6103	9.3575	1139.9	-1.0327	1.4188e-05	0.10261	0.0020701	1.0789	0.92683	369.98	444.26	22.689	6.4194	11.746	351.90	19.102	1.0318e-06	0.016273
19.700	0.082702	71.599	0.013967	-7.7455	-6.5905	-0.31590	5.6170	9.4097	1137.2	-1.0225	1.4070e-05	0.10279	0.0020538	1.1097	0.90112	370.34	444.86	22.601	6.4230	11.782	352.51	18.991	1.0378e-06	0.016377
19.800	0.085314	71.489	0.013988	-6.8152	-5.6218	-0.26870	5.6236	9.4625	1134.5	-1.0123	1.3953e-05	0.10296	0.0020376	1.1411	0.87631	370.70	445.46	22.513	6.4266	11.817	353.12	18.881	1.0439e-06	0.016481
19.900	0.087986	71.378	0.014010	-5.8800	-4.6474	-0.22150	5.6302	9.5157	1131.8	-1.0021	1.3838e-05	0.10313	0.0020213	1.1732	0.85237	371.05	446.05	22.427	6.4303	11.854	353.71	18.773	1.0500e-06	0.016586
20.000	0.090717	71.267	0.014032	-4.9400	-3.6671	-0.17428	5.6367	9.5694	1129.1	-0.99177	1.3725e-05	0.10329	0.0020051	1.2059	0.82926	371.40	446.63	22.341	6.4341	11.891	354.30	18.665	1.0561e-06	0.016692
20.100	0.093510	71.155	0.014054	-3.9952	-2.6810	-0.12706	5.6433	9.6236	1126.4	-0.98145	1.3613e-05	0.10345	0.0019888	1.2392	0.80695	371.74	447.20	22.255	6.4380	11.930	354.88	18.559	1.0622e-06	0.016798
20.200	0.096363	71.042	0.014076	-3.0455	-1.6890	-0.079820	5.6498	9.6784	1123.6	-0.97110	1.3503e-05	0.10359	0.0019726	1.2732	0.78540	372.08	447.76	22.170	6.4419	11.968	355.46	18.454	1.0683e-06	0.016904
20.300	0.099279	70.929	0.014099	-2.0908	-0.69111	-0.032568	5.6563	9.7337	1120.8	-0.96070	1.3394e-05	0.10373	0.0019564	1.3079	0.76457	372.41	448.32	22.086	6.4459	12.008	356.03	18.350	1.0744e-06	0.017011
20.400	0.10226	70.815	0.014121	-1.1312	0.31284	0.014701	5.6628	9.7896	1118.0	-0.95026	1.3287e-05	0.10387	0.0019401	1.3433	0.74445	372.74	448.87	22.003	6.4501	12.049	356.59	18.247	1.0805e-06	0.017119
20.500	0.10530	70.700	0.014144	-0.16655	1.3228	0.061987	5.6692	9.8461	1115.2	-0.93978	1.3180e-05	0.10399	0.0019239	1.3793	0.72499	373.06	449.41	21.920	6.4543	12.090	357.15	18.146	1.0867e-06	0.017227
20.600	0.10841	70.585	0.014167	0.80312	2.3390	0.10929	5.6757	9.9031	1112.3	-0.92926	1.3076e-05	0.10411	0.0019077	1.4161	0.70618	373.38	449.94	21.837	6.4586	12.133	357.70	18.045	1.0928e-06	0.017335
20.700	0.11158	70.469	0.014191	1.7779	3.3613	0.15662	5.6821	9.9607	1109.5	-0.91869	1.2972e-05	0.10423	0.0018915	1.4535	0.68799	373.69	450.46	21.755	6.4629	12.176	358.24	17.945	1.0990e-06	0.017444
20.800	0.11482	70.352	0.014214	2.7577	4.3898	0.20397	5.6886	10.019	1106.6	-0.90808	1.2870e-05	0.10434	0.0018754	1.4917	0.67039	374.00	450.97	21.674	6.4674	12.220	358.78	17.846	1.1052e-06	0.017554
20.900	0.11813	70.235	0.014238	3.7428	5.4246	0.25135	5.6950	10.078	1103.7	-0.89742	1.2770e-05	0.10444	0.0018592	1.5306	0.65335	374.30	451.47	21.593	6.4720	12.265	359.31	17.748	1.1114e-06	0.017664
21.000	0.12150	70.117	0.014262	4.7330	6.4658	0.29875	5.7014	10.137	1100.7	-0.88670	1.2670e-05	0.10454	0.0018430	1.5702	0.63686	374.59	451.97	21.513	6.4766	12.311	359.83	17.650	1.1176e-06	0.017775
21.100	0.12494	69.998	0.014286	5.7284	7.5134	0.34618	5.7077	10.197	1097.8	-0.87593	1.2572e-05	0.10463	0.0018269	1.6106	0.62090	374.88	452.46	21.434	6.4814	12.358	360.35	17.554	1.1238e-06	0.017886
21.200	0.12845	69.879	0.014311	6.7292	8.5674	0.39365	5.7141	10.258	1094.8	-0.86511	1.2475e-05	0.10471	0.0018107	1.6517	0.60544	375.16	452.93	21.354	6.4863	12.406	360.86	17.459	1.1300e-06	0.017998
21.300	0.13203	69.758	0.014335	7.7353	9.6280	0.44114	5.7205	10.320	1091.8	-0.85424	1.2379e-05	0.10479	0.0017946	1.6936	0.59047	375.44	453.40	21.276	6.4912	12.455	361.36	17.364	1.1363e-06	0.018111
21.400	0.13568	69.637	0.014360	8.7467	10.695	0.48867	5.7268	10.382	1088.8	-0.84330	1.2284e-05	0.10486	0.0017785	1.7362	0.57596	375.71	453.86	21.197	6.4963	12.505	361.86	17.270	1.1426e-06	0.018224
21.500	0.13941	69.516	0.014385	9.7636	11.769	0.53624	5.7332	10.445	1085.8	-0.83231	1.2190e-05	0.10493	0.0017623	1.7797	0.56190	375.98	454.31	21.120	6.5015	12.557	362.35	17.177	1.1489e-06	0.018338
21.600	0.14320	69.393	0.014411	10.786	12.850	0.58384	5.7395	10.509	1082.7	-0.82125	1.2097e-05	0.10500	0.0017462	1.8239	0.54826	376.24	454.75	21.042	6.5068	12.609	362.83	17.085	1.1552e-06	0.018452
21.700	0.14707	69.270	0.014436	11.814	13.937	0.63149	5.7458	10.573	1079.6	-0.81013	1.2006e-05	0.10505	0.0017301	1.8690	0.53505	376.49	455.18	20.965	6.5122	12.662	363.30	16.993	1.1615e-06	0.018567
21.800	0.15101	69.146	0.014462	12.847	15.031	0.67918	5.7521	10.638	1076.5	-0.79894	1.1915e-05	0.10510	0.0017140	1.9149	0.52223	376.74	455.60	20.889	6.5176	12.717	363.77	16.902	1.1678e-06	0.018683
21.900	0.15503	69.021	0.014488	13.886	16.132	0.72691	5.7585	10.704	1073.4	-0.78769	1.1826e-05	0.10515	0.0016979	1.9616	0.50980	376.98	456.01	20.813	6.5233	12.773	364.24	16.812	1.1742e-06	0.018800
22.000	0.15913	68.895	0.014515	14.931	17.240	0.77469	5.7648	10.771	1070.2	-0.77637	1.1737e-05	0.10519	0.0016819	2.0091	0.49773	377.21	456.41	20.737	6.5290	12.829	364.69	16.723	1.1806e-06	0.018917
22.100	0.16329	68.769	0.014541	15.981	18.356	0.82252	5.7711	10.839	1067.1	-0.76497	1.1650e-05	0.10523	0.0016658	2.0575	0.48603	377.44	456.81	20.662	6.5348	12.888	365.14	16.634	1.1870e-06	0.019035
22.200	0.16754	68.642	0.014568	17.037	19.478	0.87040	5.7773	10.907	1063.9	-0.75350	1.1563e-05	0.10526	0.0016497	2.1068	0.47466	377.66	457.19	20.587	6.5407	12.947	365.58	16.546	1.1934e-06	0.019153
22.300	0.17187	68.514	0.014596	18.099	20.608	0.91834	5.7836	10.977	1060.7	-0.74195	1.1478e-05	0.10528	0.0016337	2.1569	0.46363	377.88	457.56	20.513	6.5468	13.008	366.02	16.459	1.1998e-06	0.019273
22.400	0.17627	68.385	0.014623	19.167	21.744	0.96633	5.7899	11.047	1057.4	-0.73032	1.1393e-05	0.10531	0.0016176	2.2079	0.45291	378.09	457.92	20.438	6.5530	13.070	366.45	16.372	1.2063e-06	0.019393
22.500	0.18075	68.255	0.014651	20.240	22.889	1.0144	5.7962	11.118	1054.1	-0.71861	1.1309e-05	0.10532	0.0016016	2.2598	0.44251	378.29	458.27	20.365	6.5593	13.133	366.87	16.286	1.2128e-06	0.019513
22.600	0.18531	68.125	0.014679	21.320	24.040	1.0625	5.8024	11.191	1050.9	-0.70681	1.1226e-05	0.10533	0.0015856	2.3127	0.43240	378.48	458.61	20.291	6.5657	13.198	367.28	16.200	1.2193e-06	0.019635
22.700	0.18996	67.993	0.014707	22.406	25.200	1.1106	5.8087	11.264	1047.5	-0.69493	1.1144e-05	0.10534	0.0015696	2.3665	0.42257	378.67	458.94	20.218	6.5722	13.264	367.69	16.115	1.2258e-06	0.019757
22.800	0.19468	67.861	0.014736	23.498	26.366	1.1589	5.8149	11.338	1044.2	-0.68296	1.1063e-05	0.10534	0.0015536	2.4212	0.41302	378.85	459.26	20.146	6.5788	13.331	368.09	16.031	1.2323e-06	0.019881
22.900	0.19949	67.728	0.014765	24.596	27.541	1.2072	5.8212	11.413	1040.8	-0.67089	1.0982e-05	0.10534	0.0015376	2.4768	0.40374	379.03	459.57	20.073	6.5856	13.401	368.49	15.947	1.2389e-06	0.020005
23.000	0.20438	67.594	0.014794	25.700	28.723	1.2555	5.8274	11.489	1037.5	-0.65873	1.0903e-05	0.10533	0.0015216	2.5335	0.39472	379.20	459.87	20.001	6.5925	13.471	368.87	15.864	1.2455e-06	0.020130
23.100	0.20936	67.459	0.014824	26.810	29.914	1.3040	5.8337	11.567	1034.0	-0.64647	1.0824e-05	0.10532	0.0015057	2.5911	0.38594	379.36	460.16	19.929	6.5995	13.544	369.26	15.781	1.2521e-06	0.020255
23.200	0.21442	67.323	0.014854	27.927	31.112	1.3525	5.8399	11.645	1030.6	-0.63411	1.0746e-05	0.10530	0.0014897	2.6497	0.37740	379.51	460.43	19.858	6.6066	13.617	369.63	15.699	1.2588e-06	0.020382
23.300	0.21957	67.186	0.014884	29.050	32.318	1.4011	5.8461	11.725	1027.2	-0.62164	1.0669e-05	0.10528	0.0014737	2.7093	0.36910	379.65	460.70	19.786	6.6139	13.693	370.00	15.618	1.2655e-06	0.020509
23.400	0.22480	67.048	0.014915	30.180	33.533	1.4498	5.8523	11.806	1023.7	-0.60907	1.0592e-05	0.10525	0.0014578	2.7699	0.36102	379.79	460.95	19.716	6.6213	13.770	370.36	15.537	1.2722e-06	0.020638
23.500	0.23013	66.910	0.014946	31.316	34.755	1.4985	5.8586	11.888	1020.2	-0.59639	1.0516e-05	0.10522	0.0014419	2.8316	0.35315	379.92	461.19	19.645	6.6288	13.849	370.71	15.456	1.2789e-06	0.020767
23.600	0.23553	66.770	0.014977	32.459	35.986	1.5474	5.8648	11.971	1016.6	-0.58359	1.0441e-05	0.10518	0.0014260	2.8944	0.34550	380.05	461.42	19.574	6.6364	13.930	371.06	15.376	1.2857e-06	0.020897
23.700	0.24103	66.629	0.015008	33.608	37.226	1.5963	5.8710	12.056	1013.1	-0.57067	1.0367e-05	0.10515	0.0014101	2.9582	0.33804	380.16	461.64	19.504	6.6442	14.013	371.40	15.296	1.2924e-06	0.021029
23.800	0.24662	66.488	0.015040	34.765	38.474	1.6453	5.8772	12.142	1009.5	-0.55763	1.0293e-05	0.10510	0.0013942	3.0231	0.33078	380.27	461.85	19.434	6.6521	14.098	371.73	15.217	1.2993e-06	0.021161
23.900	0.25230	66.345	0.015073	35.928	39.731	1.6944	5.8834	12.230	1005.8	-0.54447	1.0220e-05	0.10505	0.0013783	3.0891	0.32371	380.37	462.05	19.364	6.6602	14.184	372.06	15.139	1.3061e-06	0.021294
24.000	0.25807	66.201	0.015105	37.098	40.996	1.7436	5.8896	12.318	1002.2	-0.53118	1.0147e-05	0.10500	0.0013624	3.1563	0.31683	380.46	462.23	19.295	6.6683	14.273	372.37	15.061	1.3130e-06	0.021428
24.100	0.26394	66.056	0.015139	38.275	42.270	1.7929	5.8959	12.409	998.53	-0.51775	1.0075e-05	0.10494	0.0013466	3.2246	0.31012	380.55	462.40	19.226	6.6766	14.364	372.69	14.983	1.3199e-06	0.021564
24.200	0.26989	65.911	0.015172	39.459	43.554	1.8423	5.9021	12.501	994.83	-0.50419	1.0004e-05	0.10488	0.0013307	3.2940	0.30358	380.62	462.56	19.157	6.6851	14.457	372.99	14.906	1.3268e-06	0.021700
24.300	0.27594	65.764	0.015206	40.650	44.846	1.8918	5.9083	12.594	991.10	-0.49048	9.9333e-06	0.10482	0.0013149	3.3647	0.29720	380.69	462.70	19.088	6.6936	14.552	373.29	14.829	1.3338e-06	0.021838
24.400	0.28209	65.616	0.015240	41.849	46.148	1.9414	5.9145	12.689	987.35	-0.47663	9.8632e-06	0.10475	0.0012990	3.4365	0.29099	380.75	462.84	19.019	6.7024	14.650	373.58	14.752	1.3408e-06	0.021976
24.500	0.28833	65.467	0.015275	43.055	47.459	1.9912	5.9207	12.786	983.57	-0.46263	9.7937e-06	0.10467	0.0012832	3.5096	0.28493	380.80	462.96	18.950	6.7112	14.750	373.87	14.676	1.3479e-06	0.022116
24.600	0.29467	65.316	0.015310	44.268	48.780	2.0410	5.9270	12.884	979.75	-0.44847	9.7248e-06	0.10459	0.0012674	3.5839	0.27903	380.84	463.06	18.882	6.7202	14.852	374.15	14.601	1.3550e-06	0.022257
24.700	0.30110	65.165	0.015346	45.489	50.110	2.0910	5.9332	12.985	975.91	-0.43416	9.6564e-06	0.10451	0.0012516	3.6594	0.27327	380.88	463.16	18.814	6.7293	14.957	374.42	14.525	1.3621e-06	0.022399
24.800	0.30763	65.012	0.015382	46.718	51.450	2.1410	5.9394	13.087	972.04	-0.41967	9.5885e-06	0.10442	0.0012359	3.7363	0.26764	380.90	463.24	18.745	6.7386	15.065	374.68	14.450	1.3692e-06	0.022542
24.900	0.31427	64.858	0.015418	47.954	52.800	2.1913	5.9457	13.191	968.14	-0.40502	9.5212e-06	0.10433	0.0012201	3.8145	0.26216	380.92	463.30	18.677	6.7480	15.175	374.94	14.376	1.3764e-06	0.022687
25.000	0.32100	64.703	0.015455	49.198	54.159	2.2416	5.9519	13.297	964.20	-0.39020	9.4544e-06	0.10424	0.0012043	3.8939	0.25681	380.92	463.36	18.609	6.7576	15.289	375.19	14.302	1.3837e-06	0.022832
25.100	0.32783	64.547	0.015493	50.451	55.529	2.2921	5.9582	13.405	960.24	-0.37519	9.3880e-06	0.10414	0.0011886	3.9748	0.25159	380.92	463.40	18.542	6.7673	15.405	375.43	14.228	1.3909e-06	0.022980
25.200	0.33476	64.390	0.015530	51.711	56.910	2.3427	5.9645	13.516	956.24	-0.35999	9.3222e-06	0.10404	0.0011729	4.0570	0.24649	380.91	463.42	18.474	6.7772	15.524	375.67	14.154	1.3982e-06	0.023128
25.300	0.34180	64.231	0.015569	52.979	58.301	2.3934	5.9708	13.628	952.22	-0.34460	9.2568e-06	0.10393	0.0011572	4.1406	0.24151	380.88	463.43	18.406	6.7872	15.646	375.90	14.081	1.4056e-06	0.023278
25.400	0.34894	64.071	0.015608	54.256	59.702	2.4443	5.9771	13.743	948.16	-0.32902	9.1919e-06	0.10382	0.0011414	4.2257	0.23665	380.85	463.43	18.339	6.7974	15.772	376.12	14.008	1.4130e-06	0.023429
25.500	0.35618	63.909	0.015647	55.541	61.114	2.4954	5.9834	13.860	944.07	-0.31323	9.1275e-06	0.10370	0.0011258	4.3122	0.23190	380.81	463.41	18.272	6.8077	15.901	376.34	13.936	1.4205e-06	0.023582
25.600	0.36353	63.746	0.015687	56.835	62.538	2.5466	5.9898	13.980	939.94	-0.29722	9.0635e-06	0.10358	0.0011101	4.4002	0.22726	380.76	463.37	18.204	6.8182	16.034	376.55	13.863	1.4279e-06	0.023736
25.700	0.37098	63.582	0.015728	58.137	63.972	2.5979	5.9961	14.103	935.78	-0.28100	8.9999e-06	0.10346	0.0010944	4.4897	0.22273	380.69	463.32	18.137	6.8289	16.170	376.75	13.791	1.4355e-06	0.023892
25.800	0.37854	63.417	0.015769	59.448	65.418	2.6494	6.0025	14.228	931.59	-0.26455	8.9367e-06	0.10333	0.0010788	4.5807	0.21831	380.62	463.26	18.070	6.8397	16.310	376.95	13.720	1.4431e-06	0.024049
25.900	0.38621	63.250	0.015810	60.769	66.875	2.7011	6.0089	14.356	927.36	-0.24786	8.8740e-06	0.10320	0.0010631	4.6733	0.21398	380.54	463.18	18.002	6.8506	16.455	377.14	13.648	1.4507e-06	0.024208
26.000	0.39399	63.081	0.015853	62.098	68.344	2.7530	6.0154	14.486	923.09	-0.23094	8.8116e-06	0.10306	0.0010475	4.7675	0.20975	380.44	463.08	17.935	6.8618	16.603	377.32	13.577	1.4584e-06	0.024369
26.100	0.40187	62.911	0.015895	63.437	69.825	2.8050	6.0218	14.620	918.80	-0.21376	8.7496e-06	0.10292	0.0010319	4.8634	0.20562	380.34	462.97	17.868	6.8731	16.755	377.50	13.506	1.4662e-06	0.024531
26.200	0.40986	62.739	0.015939	64.785	71.317	2.8573	6.0283	14.757	914.46	-0.19633	8.6880e-06	0.10278	0.0010163	4.9609	0.20158	380.22	462.84	17.801	6.8846	16.912	377.66	13.435	1.4740e-06	0.024695
26.300	0.41797	62.566	0.015983	66.142	72.823	2.9097	6.0349	14.898	910.09	-0.17862	8.6267e-06	0.10263	0.0010007	5.0601	0.19762	380.09	462.69	17.734	6.8962	17.074	377.83	13.365	1.4818e-06	0.024861
26.400	0.42619	62.391	0.016028	67.510	74.341	2.9623	6.0414	15.042	905.67	-0.16065	8.5658e-06	0.10248	0.00098518	5.1611	0.19376	379.95	462.53	17.666	6.9081	17.241	377.98	13.294	1.4898e-06	0.025028
26.500	0.43452	62.215	0.016073	68.887	75.871	3.0151	6.0480	15.189	901.22	-0.14238	8.5053e-06	0.10232	0.00096963	5.2638	0.18998	379.80	462.35	17.599	6.9201	17.413	378.13	13.224	1.4977e-06	0.025198
26.600	0.44296	62.037	0.016119	70.274	77.415	3.0681	6.0547	15.340	896.73	-0.12382	8.4450e-06	0.10216	0.00095410	5.3684	0.18628	379.64	462.15	17.532	6.9323	17.590	378.27	13.154	1.5058e-06	0.025369
26.700	0.45152	61.857	0.016166	71.672	78.972	3.1213	6.0614	15.495	892.20	-0.10495	8.3851e-06	0.10199	0.00093858	5.4748	0.18265	379.46	461.93	17.465	6.9447	17.772	378.41	13.084	1.5139e-06	0.025543
26.800	0.46019	61.676	0.016214	73.080	80.542	3.1748	6.0682	15.655	887.63	-0.085769	8.3255e-06	0.10182	0.00092308	5.5831	0.17911	379.27	461.70	17.397	6.9573	17.961	378.53	13.014	1.5221e-06	0.025718
26.900	0.46898	61.492	0.016262	74.499	82.126	3.2285	6.0750	15.818	883.02	-0.066255	8.2661e-06	0.10165	0.00090759	5.6934	0.17564	379.07	461.44	17.330	6.9700	18.156	378.65	12.945	1.5303e-06	0.025896
27.000	0.47789	61.307	0.016311	75.929	83.724	3.2824	6.0819	15.987	878.37	-0.046401	8.2071e-06	0.10147	0.00089212	5.8057	0.17225	378.86	461.17	17.262	6.9830	18.357	378.77	12.875	1.5387e-06	0.026075
27.100	0.48691	61.120	0.016361	77.370	85.337	3.3366	6.0888	16.160	873.67	-0.026192	8.1483e-06	0.10129	0.00087667	5.9199	0.16892	378.63	460.88	17.194	6.9962	18.565	378.88	12.806	1.5471e-06	0.026258
27.200	0.49605	60.931	0.016412	78.823	86.964	3.3910	6.0958	16.338	868.93	-0.0056175	8.0898e-06	0.10110	0.00086123	6.0363	0.16566	378.39	460.57	17.126	7.0095	18.780	378.98	12.736	1.5556e-06	0.026442
27.300	0.50532	60.740	0.016464	80.287	88.606	3.4457	6.1029	16.521	864.14	0.015338	8.0315e-06	0.10091	0.00084581	6.1548	0.16247	378.13	460.23	17.058	7.0231	19.002	379.07	12.667	1.5641e-06	0.026629
27.400	0.51470	60.546	0.016516	81.763	90.263	3.5006	6.1100	16.710	859.31	0.036688	7.9735e-06	0.10071	0.00083041	6.2755	0.15935	377.86	459.88	16.990	7.0369	19.232	379.16	12.598	1.5728e-06	0.026818
27.500	0.52421	60.351	0.016570	83.251	91.936	3.5558	6.1173	16.904	854.43	0.058449	7.9157e-06	0.10051	0.00081502	6.3985	0.15629	377.58	459.50	16.922	7.0510	19.471	379.24	12.528	1.5815e-06	0.027010
27.600	0.53383	60.154	0.016624	84.751	93.625	3.6113	6.1246	17.105	849.50	0.080636	7.8581e-06	0.10030	0.00079966	6.5237	0.15329	377.27	459.10	16.853	7.0652	19.718	379.31	12.459	1.5904e-06	0.027205
27.700	0.54358	59.954	0.016679	86.264	95.331	3.6671	6.1321	17.312	844.52	0.10327	7.8007e-06	0.10009	0.00078431	6.6514	0.15034	376.96	458.68	16.785	7.0797	19.974	379.38	12.390	1.5993e-06	0.027402
27.800	0.55346	59.752	0.016736	87.790	97.053	3.7232	6.1396	17.526	839.49	0.12636	7.7435e-06	0.099876	0.00076898	6.7814	0.14746	376.63	458.24	16.716	7.0944	20.240	379.44	12.320	1.6083e-06	0.027602
27.900	0.56346	59.548	0.016793	89.330	98.792	3.7797	6.1473	17.747	834.42	0.14993	7.6865e-06	0.099656	0.00075366	6.9140	0.14463	376.28	457.78	16.646	7.1094	20.517	379.49	12.251	1.6175e-06	0.027805
28.000	0.57359	59.341	0.016852	90.883	100.55	3.8364	6.1550	17.976	829.28	0.17399	7.6296e-06	0.099431	0.00073837	7.0491	0.14186	375.91	457.29	16.577	7.1246	20.804	379.54	12.181	1.6268e-06	0.028011
28.100	0.58385	59.132	0.016911	92.450	102.32	3.8935	6.1629	18.213	824.10	0.19858	7.5729e-06	0.099201	0.00072309	7.1869	0.13914	375.53	456.77	16.507	7.1401	21.102	379.58	12.112	1.6361e-06	0.028220
28.200	0.59423	58.920	0.016972	94.032	104.12	3.9510	6.1710	18.459	818.86	0.22371	7.5164e-06	0.098966	0.00070784	7.3274	0.13647	375.13	456.23	16.437	7.1558	21.413	379.61	12.042	1.6456e-06	0.028433
28.300	0.60474	58.705	0.017034	95.628	105.93	4.0088	6.1791	18.713	813.56	0.24941	7.4599e-06	0.098725	0.00069261	7.4707	0.13386	374.72	455.66	16.367	7.1718	21.737	379.64	11.972	1.6553e-06	0.028649
28.400	0.61539	58.488	0.017097	97.240	107.76	4.0670	6.1875	18.978	808.20	0.27569	7.4036e-06	0.098480	0.00067739	7.6169	0.13129	374.28	455.07	16.296	7.1881	22.074	379.66	11.902	1.6650e-06	0.028869
28.500	0.62616	58.268	0.017162	98.867	109.61	4.1256	6.1960	19.252	802.79	0.30259	7.3474e-06	0.098229	0.00066220	7.7661	0.12876	373.82	454.45	16.225	7.2046	22.426	379.67	11.832	1.6749e-06	0.029092
28.600	0.63707	58.045	0.017228	100.51	111.49	4.1846	6.2046	19.538	797.31	0.33013	7.2913e-06	0.097973	0.00064703	7.9184	0.12629	373.35	453.80	16.154	7.2215	22.794	379.68	11.761	1.6850e-06	0.029319
28.700	0.64811	57.819	0.017295	102.17	113.38	4.2441	6.2135	19.836	791.77	0.35834	7.2352e-06	0.097711	0.00063188	8.0738	0.12386	372.85	453.13	16.082	7.2386	23.178	379.68	11.690	1.6952e-06	0.029550
28.800	0.65929	57.590	0.017364	103.85	115.30	4.3040	6.2226	20.146	786.17	0.38726	7.1792e-06	0.097444	0.00061675	8.2326	0.12147	372.33	452.42	16.010	7.2561	23.581	379.67	11.619	1.7056e-06	0.029785
28.900	0.67060	57.357	0.017435	105.54	117.23	4.3643	6.2319	20.469	780.49	0.41691	7.1232e-06	0.097170	0.00060164	8.3947	0.11912	371.80	451.68	15.937	7.2739	24.002	379.66	11.548	1.7162e-06	0.030025
29.000	0.68205	57.121	0.017507	107.25	119.19	4.4252	6.2414	20.807	774.75	0.44733	7.0672e-06	0.096891	0.00058656	8.5604	0.11682	371.23	450.91	15.864	7.2920	24.444	379.64	11.476	1.7269e-06	0.030269
29.100	0.69364	56.882	0.017580	108.99	121.18	4.4865	6.2511	21.160	768.94	0.47856	7.0113e-06	0.096606	0.00057150	8.7297	0.11455	370.65	450.11	15.790	7.3105	24.908	379.61	11.404	1.7379e-06	0.030518
29.200	0.70536	56.638	0.017656	110.74	123.19	4.5484	6.2611	21.530	763.06	0.51064	6.9553e-06	0.096315	0.00055647	8.9029	0.11232	370.04	449.27	15.715	7.3293	25.396	379.58	11.331	1.7491e-06	0.030772
29.300	0.71723	56.391	0.017733	112.51	125.23	4.6109	6.2714	21.918	757.10	0.54362	6.8993e-06	0.096017	0.00054146	9.0800	0.11013	369.41	448.40	15.641	7.3485	25.909	379.54	11.258	1.7605e-06	0.031031
29.400	0.72924	56.140	0.017813	114.30	127.29	4.6739	6.2820	22.326	751.06	0.57753	6.8433e-06	0.095713	0.00052647	9.2611	0.10798	368.75	447.49	15.565	7.3681	26.450	379.49	11.184	1.7721e-06	0.031295
29.500	0.74139	55.885	0.017894	116.12	129.38	4.7375	6.2930	22.754	744.94	0.61242	6.7871e-06	0.095402	0.00051151	9.4466	0.10586	368.06	446.54	15.489	7.3880	27.020	379.43	11.109	1.7840e-06	0.031565
29.600	0.75368	55.626	0.017977	117.95	131.50	4.8018	6.3042	23.205	738.74	0.64836	6.7309e-06	0.095084	0.00049658	9.6365	0.10377	367.34	445.55	15.412	7.4084	27.624	379.37	11.034	1.7961e-06	0.031842
29.700	0.76612	55.361	0.018063	119.81	133.65	4.8667	6.3159	23.682	732.46	0.68540	6.6746e-06	0.094758	0.00048168	9.8311	0.10172	366.60	444.52	15.334	7.4292	28.262	379.31	10.959	1.8086e-06	0.032124
29.800	0.77871	55.093	0.018151	121.70	135.83	4.9324	6.3279	24.185	726.08	0.72359	6.6181e-06	0.094426	0.00046680	10.031	0.099696	365.82	443.45	15.255	7.4504	28.939	379.23	10.882	1.8213e-06	0.032413
29.900	0.79144	54.819	0.018242	123.61	138.05	4.9988	6.3404	24.718	719.62	0.76302	6.5614e-06	0.094086	0.00045195	10.235	0.097704	365.01	442.34	15.176	7.4721	29.659	379.15	10.805	1.8344e-06	0.032710
30.000	0.80432	54.540	0.018335	125.55	140.29	5.0659	6.3533	25.284	713.05	0.80374	6.5046e-06	0.093737	0.00043713	10.445	0.095741	364.17	441.18	15.095	7.4943	30.424	379.06	10.726	1.8478e-06	0.033013
30.100	0.81736	54.255	0.018432	127.51	142.58	5.1340	6.3667	25.885	706.39	0.84583	6.4475e-06	0.093381	0.00042235	10.660	0.093806	363.29	439.97	15.014	7.5169	31.241	378.97	10.647	1.8617e-06	0.033325
30.200	0.83054	53.964	0.018531	129.51	144.90	5.2028	6.3807	26.526	699.63	0.88939	6.3901e-06	0.093016	0.00040759	10.882	0.091898	362.38	438.70	14.932	7.5401	32.113	378.86	10.567	1.8759e-06	0.033645
30.300	0.84388	53.668	0.018633	131.53	147.26	5.2726	6.3952	27.211	692.76	0.93451	6.3325e-06	0.092642	0.00039287	11.109	0.090016	361.43	437.39	14.848	7.5638	33.048	378.76	10.485	1.8906e-06	0.033974
30.400	0.85737	53.364	0.018739	133.59	149.66	5.3435	6.4104	27.944	685.77	0.98128	6.2745e-06	0.092259	0.00037818	11.343	0.088158	360.43	436.02	14.763	7.5881	34.051	378.64	10.403	1.9057e-06	0.034312
30.500	0.87102	53.054	0.018849	135.68	152.10	5.4153	6.4263	28.732	678.67	1.0298	6.2161e-06	0.091866	0.00036352	11.584	0.086324	359.40	434.58	14.677	7.6130	35.132	378.52	10.319	1.9214e-06	0.034660
30.600	0.88482	52.737	0.018962	137.81	154.59	5.4883	6.4428	29.580	671.44	1.0803	6.1573e-06	0.091462	0.00034890	11.833	0.084512	358.31	433.09	14.590	7.6385	36.298	378.39	10.233	1.9377e-06	0.035019
30.700	0.89879	52.411	0.019080	139.98	157.13	5.5625	6.4602	30.497	664.09	1.1327	6.0981e-06	0.091048	0.00033432	12.089	0.082721	357.18	431.53	14.500	7.6646	37.561	378.25	10.146	1.9545e-06	0.035389
30.800	0.91291	52.078	0.019202	142.19	159.72	5.6379	6.4785	31.491	656.60	1.1873	6.0383e-06	0.090623	0.00031978	12.353	0.080950	356.00	429.90	14.410	7.6914	38.933	378.11	10.057	1.9720e-06	0.035772
30.900	0.92720	51.735	0.019329	144.45	162.37	5.7148	6.4977	32.574	648.98	1.2443	5.9779e-06	0.090185	0.00030528	12.627	0.079197	354.76	428.19	14.317	7.7190	40.430	377.95	9.9663	1.9903e-06	0.036168
31.000	0.94165	51.382	0.019462	146.75	165.07	5.7931	6.5179	33.758	641.20	1.3038	5.9168e-06	0.089735	0.00029082	12.910	0.077461	353.46	426.40	14.223	7.7472	42.068	377.79	9.8735	2.0093e-06	0.036579
31.100	0.95627	51.019	0.019600	149.10	167.84	5.8731	6.5393	35.057	633.26	1.3660	5.8551e-06	0.089271	0.00027640	13.203	0.075740	352.10	424.53	14.127	7.7763	43.869	377.63	9.7784	2.0292e-06	0.037005
31.200	0.97105	50.645	0.019745	151.50	170.68	5.9548	6.5620	36.491	625.16	1.4312	5.7924e-06	0.088793	0.00026203	13.507	0.074033	350.67	422.56	14.028	7.8062	45.858	377.45	9.6809	2.0501e-06	0.037448
31.300	0.98601	50.259	0.019897	153.97	173.59	6.0385	6.5861	38.083	616.89	1.4997	5.7289e-06	0.088299	0.00024770	13.824	0.072338	349.17	420.49	13.927	7.8370	48.067	377.27	9.5807	2.0721e-06	0.037910
31.400	1.0011	49.859	0.020057	156.50	176.58	6.1242	6.6117	39.860	608.42	1.5716	5.6644e-06	0.087788	0.00023343	14.154	0.070654	347.58	418.32	13.823	7.8688	50.534	377.08	9.4775	2.0952e-06	0.038392
31.500	1.0164	49.445	0.020225	159.10	179.66	6.2123	6.6391	41.857	599.76	1.6474	5.5986e-06	0.087259	0.00021921	14.498	0.068977	345.91	416.02	13.716	7.9015	53.306	376.88	9.3710	2.1197e-06	0.038896
31.600	1.0319	49.014	0.020402	161.78	182.83	6.3029	6.6684	44.120	590.88	1.7275	5.5316e-06	0.086709	0.00020505	14.857	0.067306	344.14	413.60	13.606	7.9353	56.445	376.68	9.2608	2.1456e-06	0.039425
31.700	1.0476	48.565	0.020591	164.54	186.11	6.3964	6.6999	46.705	581.77	1.8123	5.4631e-06	0.086138	0.00019094	15.235	0.065639	342.27	411.03	13.492	7.9702	60.029	376.46	9.1465	2.1732e-06	0.039982
31.800	1.0634	48.096	0.020792	167.40	189.51	6.4931	6.7338	49.688	572.42	1.9023	5.3929e-06	0.085542	0.00017690	15.632	0.063971	340.27	408.30	13.373	8.0063	64.157	376.24	9.0276	2.2027e-06	0.040570
31.900	1.0795	47.604	0.021007	170.37	193.04	6.5935	6.7707	53.169	562.79	1.9983	5.3207e-06	0.084918	0.00016293	16.051	0.062300	338.14	405.39	13.250	8.0436	68.965	376.01	8.9034	2.2343e-06	0.041192
32.000	1.0957	47.086	0.021238	173.46	196.72	6.6981	6.8108	57.285	552.87	2.1008	5.2463e-06	0.084264	0.00014903	16.496	0.060621	335.87	402.29	13.122	8.0823	74.634	375.77	8.7733	2.2684e-06	0.041855
32.100	1.1121	46.538	0.021488	176.69	200.58	6.8074	6.8547	62.229	542.62	2.2110	5.1693e-06	0.083574	0.00013521	16.969	0.058929	333.42	398.95	12.987	8.1225	81.418	375.53	8.6363	2.3053e-06	0.042565
32.200	1.1287	45.955	0.021760	180.08	204.64	6.9225	6.9031	68.278	532.01	2.3298	5.0891e-06	0.082842	0.00012147	17.477	0.057219	330.77	395.35	12.845	8.1642	89.679	375.27	8.4912	2.3455e-06	0.043328
32.300	1.1455	45.331	0.022060	183.67	208.94	7.0443	6.9569	75.846	521.00	2.4587	5.0052e-06	0.082061	0.00010783	18.024	0.055481	327.88	391.43	12.694	8.2075	99.955	375.01	8.3368	2.3896e-06	0.044155
32.400	1.1625	44.657	0.022393	187.49	213.52	7.1744	7.0173	85.584	509.52	2.5996	4.9168e-06	0.081221	9.4296e-05	18.620	0.053705	324.71	387.14	12.533	8.2526	113.08	374.74	8.1709	2.4384e-06	0.045060
32.500	1.1797	43.920	0.022769	191.61	218.47	7.3148	7.0857	98.564	497.51	2.7550	4.8228e-06	0.080307	8.0878e-05	19.276	0.051878	321.19	382.39	12.359	8.2993	130.42	374.48	7.9910	2.4929e-06	0.046061
32.600	1.1971	43.104	0.023200	196.09	223.87	7.4683	7.1645	116.69	484.87	2.9281	4.7215e-06	0.079298	6.7594e-05	20.009	0.049979	317.23	377.06	12.168	8.3478	154.35	374.21	7.7936	2.5546e-06	0.047184
32.700	1.2148	42.181	0.023707	201.08	229.88	7.6397	7.2569	143.68	471.45	3.1242	4.6105e-06	0.078162	5.4469e-05	20.843	0.047977	312.68	370.97	11.954	8.3977	189.45	373.97	7.5729	2.6258e-06	0.048469
32.800	1.2327	41.109	0.024326	206.77	236.75	7.8366	7.3684	187.81	457.05	3.3511	4.4857e-06	0.076843	4.1536e-05	21.823	0.045824	307.32	363.81	11.710	8.4483	245.75	373.77	7.3202	2.7099e-06	0.049982
32.900	1.2509	39.805	0.025123	213.55	244.98	8.0733	7.5086	271.70	441.32	3.6233	4.3400e-06	0.075237	2.8848e-05	23.026	0.043428	300.71	355.03	11.419	8.4974	350.02	373.68	7.0191	2.8136e-06	0.051844
33.000	1.2693	38.080	0.026260	222.36	255.69	8.3839	7.6980	484.57	423.52	3.9731	4.1564e-06	0.073097	1.6501e-05	24.638	0.040588	291.88	343.39	11.042	8.5378	604.70	373.93	6.6334	2.9518e-06	0.054329
